STUDYID,DOMAIN,USUBJID,EXSEQ,EXTRT,EXDOSE,EXDOSU,EXROUTE,EXINFH,EXSTDTC,EXENDTC,EXARM,EXACTARM
OSP_cda1,EX,OSP_cda1-001,1,CDA1,100,mg,INTRAVENOUS,0,2026-01-01T08:00:00,2026-01-01T08:00:00,A,A
OSP_cda1,EX,OSP_cda1-002,2,CDA1,100,mg,INTRAVENOUS,0,2026-01-01T08:00:00,2026-01-01T08:00:00,A,A
