STUDYID,DOMAIN,USUBJID,LBSEQ,LBTESTCD,LBTEST,LBCAT,LBORRES,LBORRESU,LBSTRESN,LBSTRESU,LBDTC,VISITNUM,VISIT,LBTPT,LBTPTNUM
OSP_cda1,LB,OSP_cda1-001,1,CREAT,Creatinine,CHEMISTRY,0.792644,mg/dL,0.792644,mg/dL,2026-01-01,1,Baseline,Baseline,0
OSP_cda1,LB,OSP_cda1-002,1,CREAT,Creatinine,CHEMISTRY,0.813556,mg/dL,0.813556,mg/dL,2026-01-01,1,Baseline,Baseline,0
