STUDYID,DOMAIN,USUBJID,VSSEQ,VSTESTCD,VSTEST,VSORRES,VSORRESU,VSSTRESN,VSSTRESU,VSDTC,VISITNUM,VISIT,VSTPT,VSTPTNUM
OSP_cda1,VS,OSP_cda1-001,1,HEIGHT,Height,166.082395,cm,166.082395,cm,2026-01-01,1,Baseline,Baseline,0
OSP_cda1,VS,OSP_cda1-001,2,WEIGHT,Weight,67,kg,67,kg,2026-01-01,1,Baseline,Baseline,0
OSP_cda1,VS,OSP_cda1-001,3,BMI,Body Mass Index,24.290005,kg/m2,24.290005,kg/m2,2026-01-01,1,Baseline,Baseline,0
OSP_cda1,VS,OSP_cda1-001,4,BSA,Body Surface Area,1.758118,m2,1.758118,m2,2026-01-01,1,Baseline,Baseline,0
OSP_cda1,VS,OSP_cda1-002,1,HEIGHT,Height,156.660059,cm,156.660059,cm,2026-01-01,1,Baseline,Baseline,0
OSP_cda1,VS,OSP_cda1-002,2,WEIGHT,Weight,70,kg,70,kg,2026-01-01,1,Baseline,Baseline,0
OSP_cda1,VS,OSP_cda1-002,3,BMI,Body Mass Index,28.522098,kg/m2,28.522098,kg/m2,2026-01-01,1,Baseline,Baseline,0
OSP_cda1,VS,OSP_cda1-002,4,BSA,Body Surface Area,1.745327,m2,1.745327,m2,2026-01-01,1,Baseline,Baseline,0
