STUDYID,USUBJID,SUBJID,ARM,ACTARM,AGE,SEX,PARAMCD,PARAM,AVAL,AVALU,TIME_H,NOMTIME_H,TPT,TPTNUM,ADTM,WT,HEIGHT_CM,BMI,BSA,CREAT_MG_DL,EXTRT,DOSE_MG,DOSE_UNIT,ROUTE,PCSEQ
EXAMPLE_IV,EXAMPLE_IV-001,001,A,A,45,M,CONC,Drug Concentration,300,ng/mL,0,0,Start,1,2026-01-01T08:00:00,76,178,24.0,1.94,0.95,ALBUTEROL,0.5,mg,INTRAVENOUS,1
EXAMPLE_IV,EXAMPLE_IV-001,001,A,A,45,M,CONC,Drug Concentration,120,ng/mL,1,1,1 h,2,2026-01-01T09:00:00,76,178,24.0,1.94,0.95,ALBUTEROL,0.5,mg,INTRAVENOUS,2
EXAMPLE_IV,EXAMPLE_IV-002,002,A,A,52,F,CONC,Drug Concentration,280,ng/mL,0,0,Start,1,2026-01-01T08:00:00,58,162,22.1,1.61,0.72,ALBUTEROL,0.5,mg,INTRAVENOUS,1
EXAMPLE_IV,EXAMPLE_IV-002,002,A,A,52,F,CONC,Drug Concentration,100,ng/mL,1,1,1 h,2,2026-01-01T09:00:00,58,162,22.1,1.61,0.72,ALBUTEROL,0.5,mg,INTRAVENOUS,2
