STUDYID,DOMAIN,USUBJID,EXSEQ,EXTRT,EXDOSE,EXDOSU,EXROUTE,EXSTDTC,EXARM,EXACTARM
EXAMPLE,EX,EXAMPLE-001,1,ACICLOVIR,100,mg,ORAL,2026-01-01T08:00:00,A,A
EXAMPLE,EX,EXAMPLE-002,2,ACICLOVIR,100,mg,ORAL,2026-01-01T08:00:00,A,A
