STUDYID,DOMAIN,USUBJID,PCSEQ,PCSTRESN,PCSTRESU,PCTPT,PCTPTNUM,PCDTC,PCELTM
EXAMPLE,PC,EXAMPLE-001,1,0,ng/mL,Pre-dose,1,2026-01-01T08:00:00,PT0H
EXAMPLE,PC,EXAMPLE-001,2,950,ng/mL,1 h,2,2026-01-01T09:00:00,PT1H
EXAMPLE,PC,EXAMPLE-002,1,0,ng/mL,Pre-dose,1,2026-01-01T08:00:00,PT0H
EXAMPLE,PC,EXAMPLE-002,2,1050,ng/mL,1 h,2,2026-01-01T09:00:00,PT1H
