STUDYID,DOMAIN,USUBJID,VSTESTCD,VSSTRESN,VSSTRESU
EXAMPLE,VS,EXAMPLE-001,HEIGHT,175,cm
EXAMPLE,VS,EXAMPLE-001,WEIGHT,70,kg
EXAMPLE,VS,EXAMPLE-001,BMI,22.9,kg/m2
EXAMPLE,VS,EXAMPLE-001,BSA,1.85,m2
EXAMPLE,VS,EXAMPLE-002,HEIGHT,165,cm
EXAMPLE,VS,EXAMPLE-002,WEIGHT,60,kg
EXAMPLE,VS,EXAMPLE-002,BMI,22.0,kg/m2
EXAMPLE,VS,EXAMPLE-002,BSA,1.66,m2
