STUDYID,DOMAIN,USUBJID,EXSEQ,EXTRT,EXDOSE,EXDOSU,EXROUTE,EXSTDTC,EXARM,EXACTARM
EXAMPLE_IV,EX,EXAMPLE_IV-001,1,ALBUTEROL,0.5,mg,INTRAVENOUS,2026-01-01T08:00:00,A,A
EXAMPLE_IV,EX,EXAMPLE_IV-002,2,ALBUTEROL,0.5,mg,INTRAVENOUS,2026-01-01T08:00:00,A,A
