STUDYID,DOMAIN,USUBJID,PCSEQ,PCSTRESN,PCSTRESU,PCTPT,PCTPTNUM,PCDTC,PCELTM
EXAMPLE_IV,PC,EXAMPLE_IV-001,1,300,ng/mL,Start,1,2026-01-01T08:00:00,PT0H
EXAMPLE_IV,PC,EXAMPLE_IV-001,2,120,ng/mL,1 h,2,2026-01-01T09:00:00,PT1H
EXAMPLE_IV,PC,EXAMPLE_IV-002,1,280,ng/mL,Start,1,2026-01-01T08:00:00,PT0H
EXAMPLE_IV,PC,EXAMPLE_IV-002,2,100,ng/mL,1 h,2,2026-01-01T09:00:00,PT1H
