STUDYID,DOMAIN,USUBJID,VSTESTCD,VSSTRESN,VSSTRESU
EXAMPLE_IV,VS,EXAMPLE_IV-001,HEIGHT,178,cm
EXAMPLE_IV,VS,EXAMPLE_IV-001,WEIGHT,76,kg
EXAMPLE_IV,VS,EXAMPLE_IV-001,BMI,24.0,kg/m2
EXAMPLE_IV,VS,EXAMPLE_IV-001,BSA,1.94,m2
EXAMPLE_IV,VS,EXAMPLE_IV-002,HEIGHT,162,cm
EXAMPLE_IV,VS,EXAMPLE_IV-002,WEIGHT,58,kg
EXAMPLE_IV,VS,EXAMPLE_IV-002,BMI,22.1,kg/m2
EXAMPLE_IV,VS,EXAMPLE_IV-002,BSA,1.61,m2
