STUDYID,USUBJID,SUBJID,ARM,ACTARM,AGE,SEX,PARAMCD,PARAM,AVAL,AVALU,TIME_H,NOMTIME_H,TPT,TPTNUM,ADTM,BLQ,LLOQ,PCSTAT,WT,HEIGHT_CM,BMI,BSA,CREAT_MG_DL,EXTRT,DOSE_MG,DOSE_UNIT,ROUTE,PCSEQ
EXAMPLE,EXAMPLE-001,001,A,A,40,M,CONC,Drug Concentration,0,ng/mL,0,0,Pre-dose,1,2026-01-01T08:00:00,0,,,70,175,22.9,1.85,0.9,ACICLOVIR,100,mg,ORAL,1
EXAMPLE,EXAMPLE-001,001,A,A,40,M,CONC,Drug Concentration,950,ng/mL,1,1,1 h,2,2026-01-01T09:00:00,0,,,70,175,22.9,1.85,0.9,ACICLOVIR,100,mg,ORAL,2
EXAMPLE,EXAMPLE-002,002,A,A,50,F,CONC,Drug Concentration,0,ng/mL,0,0,Pre-dose,1,2026-01-01T08:00:00,0,,,60,165,22.0,1.66,0.8,ACICLOVIR,100,mg,ORAL,1
EXAMPLE,EXAMPLE-002,002,A,A,50,F,CONC,Drug Concentration,1050,ng/mL,1,1,1 h,2,2026-01-01T09:00:00,0,,,60,165,22.0,1.66,0.8,ACICLOVIR,100,mg,ORAL,2
